{
  "resourceType": "Bundle",
  "id": "homecare-update",
  "identifier": {
    "system": "https://tools.ietf.org/html/rfc4122",
    "value": "d6b902f4-7cc0-44f1-a919-a86d6ffbccb9"
  },
  "type": "message",
  "entry": [
    {
      "fullUrl": "urn:uuid:4f51f97f-a4b8-4756-bac9-b9bc7af8dc23",
      "resource": {
        "resourceType": "MessageHeader",
        "id": "4f51f97f-a4b8-4756-bac9-b9bc7af8dc23",
        "eventCoding": {
          "system": "https://fhir.nhs.uk/R4/CodeSystem/message-event",
          "code": "prescription-order-update",
          "display": "Prescription Order Update"
        },
        "sender": {
          "reference": "urn:uuid:a5acefc1-f8ca-4989-a5ac-34ae36741466",
          "display": "DR SAZ RAZ"
        },
        "source": {
          "extension": [
            {
              "url": "https://fhir.nhs.uk/R4/StructureDefinition/Extension-spineEndpoint",
              "valueIdentifier": {
                "system": "https://fhir.nhs.uk/Id/spine-ASID",
                "value": "12456789012"
              }
            }
          ],
          "name": "DJM",
          "endpoint": "https://mait.digital.nhs.uk/"
        },
        "focus": [
          {
            "reference": "urn:uuid:78d3c2eb-009e-4ec8-a358-b042954aa9b2"
          },
          {
            "reference": "urn:uuid:a54219b8-f741-4c47-b662-e4f8dfa49ab6"
          }
        ]
      }
    },
    {
      "fullUrl": "urn:uuid:a54219b8-f741-4c47-b662-e4f8dfa49ab6",
      "resource": {
        "resourceType": "MedicationRequest",
        "id": "a54219b8-f741-4c47-b662-e4f8dfa49ab6",
        "extension": [
          {
            "url": "https://fhir.nhs.uk/R4/StructureDefinition/Extension-DM-ResponsiblePractitioner",
            "valueReference": {
              "reference": "urn:uuid:a5acefc1-f8ca-4989-a5ac-34ae36741466"
            }
          }
        ],
        "meta": {
          "versionId": "2",
          "lastUpdated": "2020-07-13T12:30:00+00:00"
        },
        "identifier": [
          {
            "system": "https://fhir.nhs.uk/Id/prescription-order-item-number",
            "value": "a54219b8-f741-4c47-b662-e4f8dfa49ab6"
          }
        ],
        "status": "cancelled",
        "statusReason": [
          {
            "coding": [
              {
                "system": "https://fhir.nhs.uk/R4/CodeSystem/medicationrequest-status-reason",
                "code": "0001",
                "display": "Prescribing Error"
              }
            ]
          }
        ],
        "intent": "order",
        "medicationCodeableConcept": {
          "coding": [
            {
              "system": "http://snomed.info/sct",
              "code": "15517911000001104",
              "display": "Methotrexate 10mg/0.2ml solution for injection pre-filled syringes"
            }
          ]
        },
        "subject": {
          "reference": "urn:uuid:78d3c2eb-009e-4ec8-a358-b042954aa9b2"
        },
        "authoredOn": "2020-07-13T12:00:00+00:00",
        "requester": {
          "reference": "urn:uuid:56166769-c1c4-4d07-afa8-132b5dfca666"
        },
        "groupIdentifier": {
          "extension": [
            {
              "url": "https://fhir.nhs.uk/R4/StructureDefinition/Extension-PrescriptionId",
              "valueIdentifier": {
                "system": "https://fhir.nhs.uk/Id/prescription",
                "value": "ad945a29-85f8-439a-b590-6789719adc16"
              }
            }
          ],
          "system": "https://fhir.nhs.uk/Id/prescription-order-number",
          "value": "DC2C66-A1B2C3-23407B"
        },
        "substitution": {
          "allowedBoolean": false
        }
      }
    },
    {
      "fullUrl": "urn:uuid:78d3c2eb-009e-4ec8-a358-b042954aa9b2",
      "resource": {
        "resourceType": "Patient",
        "id": "78d3c2eb-009e-4ec8-a358-b042954aa9b2",
        "identifier": [
          {
            "extension": [
              {
                "url": "https://fhir.nhs.uk/R4/StructureDefinition/Extension-UKCore-NHSNumberVerificationStatus",
                "valueCodeableConcept": {
                  "coding": [
                    {
                      "system": "https://fhir.nhs.uk/R4/CodeSystem/UKCore-NHSNumberVerificationStatus",
                      "code": "01",
                      "display": "Number present and verified"
                    }
                  ]
                }
              }
            ],
            "system": "https://fhir.nhs.uk/Id/nhs-number",
            "value": "9453740519"
          }
        ],
        "name": [
          {
            "use": "official",
            "family": "CORY",
            "given": [
              "ETTA"
            ],
            "prefix": [
              "MISS"
            ]
          }
        ],
        "gender": "female",
        "birthDate": "1999-01-04",
        "address": [
          {
            "use": "home",
            "line": [
              "123 Dale Avenue",
              "Long Eaton",
              "Nottingham"
            ],
            "postalCode": "NG10 1NP"
          }
        ],
        "managingOrganization": {
          "identifier": {
            "system": "https://fhir.nhs.uk/Id/ods-organization-code",
            "value": "B81001"
          }
        }
      }
    },
    {
      "fullUrl": "urn:uuid:56166769-c1c4-4d07-afa8-132b5dfca666",
      "resource": {
        "resourceType": "PractitionerRole",
        "id": "56166769-c1c4-4d07-afa8-132b5dfca666",
        "identifier": [
          {
            "system": "https://fhir.nhs.uk/Id/sds-role-profile-id",
            "value": "100102238986"
          },
          {
            "system": "https://fhir.nhs.uk/Id/prescribing-code",
            "value": "2345213"
          }
        ],
        "practitioner": {
          "reference": "urn:uuid:a8c85454-f8cb-498d-9629-78e2cb5fa47a"
        },
        "organization": {
          "reference": "urn:uuid:3b4b03a5-52ba-4ba6-9b82-70350aa109d8"
        },
        "code": [
          {
            "coding": [
              {
                "system": "https://fhir.nhs.uk/R4/CodeSystem/UKCore-SDSJobRoleName",
                "code": "R8000",
                "display": "Clinical Practitioner Access Role"
              }
            ]
          }
        ],
        "healthcareService": [
          {
            "reference": "urn:uuid:54b0506d-49af-4245-9d40-d7d64902055e",
            "identifier": [
              {
                "use": "official",
                "system": "https://fhir.nhs.uk/Id/ods-organization-code",
                "value": "A99968"
              }
            ],
            "display": "SOMERSET BOWEL CANCER SCREENING CENTRE"
          }
        ],
        "telecom": [
          {
            "system": "phone",
            "value": "01234567890",
            "use": "work"
          }
        ]
      }
    },
    {
      "fullUrl": "urn:uuid:a8c85454-f8cb-498d-9629-78e2cb5fa47a",
      "resource": {
        "resourceType": "Practitioner",
        "id": "a8c85454-f8cb-498d-9629-78e2cb5fa47a",
        "identifier": [
          {
            "system": "https://fhir.nhs.uk/Id/sds-user-id",
            "value": "3415870201"
          },
          {
            "system": "https://fhir.hl7.org.uk/Id/gmc-number",
            "value": "G1234567"
          },
          {
            "system": "https://fhir.hl7.org.uk/Id/din-number",
            "value": "1234567"
          }
        ],
        "name": [
          {
            "family": "ALI",
            "given": [
              "RAZIA"
            ],
            "prefix": [
              "DR"
            ]
          }
        ]
      }
    },
    {
      "fullUrl": "urn:uuid:3b4b03a5-52ba-4ba6-9b82-70350aa109d8",
      "resource": {
        "resourceType": "Organization",
        "id": "3b4b03a5-52ba-4ba6-9b82-70350aa109d8",
        "identifier": [
          {
            "system": "https://fhir.nhs.uk/Id/ods-organization-code",
            "value": "RBA"
          }
        ],
        "type": [
          {
            "coding": [
              {
                "system": "https://fhir.nhs.uk/R4/CodeSystem/organisation-role",
                "code": "RO197",
                "display": "NHS TRUST"
              }
            ]
          }
        ],
        "name": "TAUNTON AND SOMERSET NHS FOUNDATION TRUST",
        "address": [
          {
            "line": [
              "MUSGROVE PARK HOSPITAL",
              "PARKFIELD DRIVE",
              "TAUNTON"
            ],
            "postalCode": "TA1 5DA"
          }
        ],
        "telecom": [
          {
            "system": "phone",
            "value": "01823333444",
            "use": "work"
          }
        ]
      }
    },
    {
      "fullUrl": "urn:uuid:54b0506d-49af-4245-9d40-d7d64902055e",
      "resource": {
        "resourceType": "HealthcareService",
        "id": "54b0506d-49af-4245-9d40-d7d64902055e",
        "identifier": [
          {
            "use": "official",
            "system": "https://fhir.nhs.uk/Id/ods-organization-code",
            "value": "A99968"
          }
        ],
        "active": true,
        "providedBy": {
          "identifier": {
            "system": "https://fhir.nhs.uk/Id/ods-organization-code",
            "value": "RBA"
          }
        },
        "location": [
          {
            "reference": "urn:uuid:8a5d7d67-64fb-44ec-9802-2dc214bb3dcb"
          }
        ],
        "name": "SOMERSET BOWEL CANCER SCREENING CENTRE",
        "telecom": [
          {
            "system": "phone",
            "value": "01823 333444",
            "use": "work"
          }
        ]
      }
    },
    {
      "fullUrl": "urn:uuid:8a5d7d67-64fb-44ec-9802-2dc214bb3dcb",
      "resource": {
        "resourceType": "Location",
        "id": "8a5d7d67-64fb-44ec-9802-2dc214bb3dcb",
        "identifier": [
          {
            "value": "10008800708"
          }
        ],
        "status": "active",
        "mode": "instance",
        "address": {
          "use": "work",
          "line": [
            "MUSGROVE PARK HOSPITAL"
          ],
          "city": "TAUNTON",
          "postalCode": "TA1 5DA",
          "country": "NLD"
        }
      }
    },
    {
      "fullUrl": "urn:uuid:a5acefc1-f8ca-4989-a5ac-34ae36741466",
      "resource": {
        "resourceType": "PractitionerRole",
        "id": "a5acefc1-f8ca-4989-a5ac-34ae36741466",
        "identifier": [
          {
            "system": "https://fhir.nhs.uk/Id/sds-role-profile-id",
            "value": "10012345678"
          },
          {
            "system": "https://fhir.nhs.uk/Id/prescribing-code",
            "value": "2132345"
          }
        ],
        "practitioner": {
          "reference": "urn:uuid:e6aa1919-1334-4cb2-9024-b3c9bb0415c1"
        },
        "organization": {
          "reference": "urn:uuid:3b4b03a5-52ba-4ba6-9b82-70350aa109d8"
        },
        "code": [
          {
            "coding": [
              {
                "system": "https://fhir.nhs.uk/R4/CodeSystem/UKCore-SDSJobRoleName",
                "code": "R8000",
                "display": "Clinical Practitioner Access Role"
              }
            ]
          }
        ]
      }
    },
    {
      "fullUrl": "urn:uuid:e6aa1919-1334-4cb2-9024-b3c9bb0415c1",
      "resource": {
        "resourceType": "Practitioner",
        "id": "e6aa1919-1334-4cb2-9024-b3c9bb0415c1",
        "identifier": [
          {
            "system": "https://fhir.nhs.uk/Id/sds-user-id",
            "value": "7020134158"
          },
          {
            "system": "https://fhir.hl7.org.uk/Id/gmc-number",
            "value": "G9999999"
          },
          {
            "system": "https://fhir.hl7.org.uk/Id/din-number",
            "value": "70201123456"
          }
        ],
        "name": [
          {
            "family": "RAZ",
            "given": [
              "SAZ"
            ],
            "prefix": [
              "DR"
            ]
          }
        ]
      }
    }
  ]
}
